Folder: Energy-dispersive-X-ray-Spectroscopy-Data-Analysis

File: Brass Spectrum_Matrix.txt
#FORMAT      : EMSA/MAS Spectral Data File
#VERSION     : 1.0
#TITLE       : Spectrum 3
#DATE        : 01-APR-2024
#TIME        : 10:44
#OWNER       :
#NPOINTS     : 2048.0
#NCOLUMNS    : 1.0
#XUNITS      : keV
#YUNITS      : counts
#DATATYPE    : XY
#XPERCHAN    : 0.01
#OFFSET      : -0.2
#SIGNALTYPE  : EDS
#CHOFFSET    : 20.0
#LIVETIME    : 59.9445
#REALTIME    : 68.2849
#BEAMKV      : 20.0
#MAGCAM      : 2000.0
#XTILTSTGE   : 0.0
#AZIMANGLE   : 0.0
#ELEVANGLE   : 35.0
#XPOSITION mm: 9.7729
#YPOSITION mm: -4.0065
#ZPOSITION mm: 22.0000
##OXINSTPT   : 6
##OXINSTSTROB: 46.40
##OXINSTNDET : 1
##OXINSTELEMS: 29,30,6,8,26,82,13
##OXINSTLABEL: 29, 8.048, Cu
##OXINSTLABEL: 29, 8.905, Cu
##OXINSTLABEL: 29, 0.930, Cu
##OXINSTLABEL: 29, 0.832, Cu
##OXINSTLABEL: 29, 0.811, Cu
##OXINSTLABEL: 30, 8.639, Zn
##OXINSTLABEL: 30, 9.572, Zn
##OXINSTLABEL: 30, 1.012, Zn
##OXINSTLABEL: 30, 0.906, Zn
##OXINSTLABEL: 30, 0.884, Zn
##OXINSTLABEL: 6, 0.277, C
##OXINSTLABEL: 8, 0.525, O
##OXINSTLABEL: 26, 6.404, Fe
##OXINSTLABEL: 26, 7.058, Fe
##OXINSTLABEL: 26, 0.703, Fe
##OXINSTLABEL: 26, 0.615, Fe
##OXINSTLABEL: 82, 10.552, Pb
##OXINSTLABEL: 82, 12.614, Pb
##OXINSTLABEL: 82, 12.623, Pb
##OXINSTLABEL: 82, 11.349, Pb
##OXINSTLABEL: 82, 14.765, Pb
##OXINSTLABEL: 82, 15.101, Pb
##OXINSTLABEL: 82, 9.185, Pb
##OXINSTLABEL: 82, 2.345, Pb
##OXINSTLABEL: 82, 2.653, Pb
##OXINSTLABEL: 82, 1.823, Pb
##OXINSTLABEL: 82, 0.293, Pb
##OXINSTLABEL: 82, 0.276, Pb
##OXINSTLABEL: 13, 1.487, Al
#SPECTRUM    : Spectral Data Starts Here
-0.20000, 0.0
-0.13000, 0.0
-0.06000, 20.0
0.01000, 4089.0
0.08000, 641.0
0.15000, 128.0
0.22000, 204.0
0.29000, 414.0
0.36000, 175.0
0.43000, 269.0
0.50000, 729.0
0.57000, 538.0
0.64000, 664.0
0.71000, 858.0
0.78000, 2418.0
0.85000, 4265.0
0.92000, 33631.0
0.99000, 11136.0
1.06000, 3796.0
1.13000, 393.0
1.20000, 311.0
1.27000, 338.0
1.34000, 371.0
1.41000, 389.0
1.48000, 482.0
1.55000, 423.0
1.62000, 447.0
1.69000, 482.0
1.76000, 563.0
1.83000, 532.0
1.90000, 537.0
1.97000, 506.0
2.04000, 543.0
2.11000, 564.0
2.18000, 549.0
2.25000, 578.0
2.32000, 735.0
2.39000, 758.0
2.46000, 700.0
2.53000, 620.0
2.60000, 642.0
2.67000, 646.0
2.74000, 628.0
2.81000, 593.0
2.88000, 562.0
2.95000, 601.0
3.02000, 560.0
3.09000, 563.0
3.16000, 605.0
3.23000, 596.0
3.30000, 570.0
3.37000, 578.0
3.44000, 599.0
3.51000, 596.0
3.58000, 586.0
3.65000, 590.0
3.72000, 513.0
3.79000, 538.0
3.86000, 537.0
3.93000, 484.0
4.00000, 502.0
4.07000, 462.0
4.14000, 475.0
4.21000, 467.0
4.28000, 456.0
4.35000, 440.0
4.42000, 422.0
4.49000, 462.0
4.56000, 465.0
4.63000, 414.0
4.70000, 438.0
4.77000, 397.0
4.84000, 407.0
4.91000, 389.0
4.98000, 384.0
5.05000, 375.0
5.12000, 363.0
5.19000, 325.0
5.26000, 335.0
5.33000, 401.0
5.40000, 351.0
5.47000, 328.0
5.54000, 345.0
5.61000, 322.0
5.68000, 342.0
5.75000, 321.0
5.82000, 309.0
5.89000, 327.0
5.96000, 307.0
6.03000, 324.0
6.10000, 304.0
6.17000, 298.0
6.24000, 274.0
6.31000, 307.0
6.38000, 330.0
6.45000, 307.0
6.52000, 261.0
6.59000, 279.0
6.66000, 279.0
6.73000, 256.0
6.80000, 258.0
6.87000, 202.0
6.94000, 260.0
7.01000, 260.0
7.08000, 236.0
7.15000, 214.0
7.22000, 241.0
7.29000, 240.0
7.36000, 220.0
7.43000, 286.0
7.50000, 234.0
7.57000, 222.0
7.64000, 227.0
7.71000, 194.0
7.78000, 201.0
7.85000, 310.0
7.92000, 1581.0
7.99000, 6181.0
8.06000, 7733.0
8.13000, 3020.0
8.20000, 485.0
8.27000, 237.0
8.34000, 197.0
8.41000, 203.0
8.48000, 489.0
8.55000, 1955.0
8.62000, 3786.0
8.69000, 2491.0
8.76000, 724.0
8.83000, 792.0
8.90000, 1214.0
8.97000, 766.0
9.04000, 286.0
9.11000, 173.0
9.18000, 149.0
9.25000, 147.0
9.32000, 144.0
9.39000, 167.0
9.46000, 278.0
9.53000, 531.0
9.60000, 550.0
9.67000, 268.0
9.74000, 157.0
9.81000, 124.0
9.88000, 123.0
9.95000, 120.0
10.02000, 106.0
10.09000, 124.0
10.16000, 113.0
10.23000, 102.0
10.30000, 119.0
10.37000, 111.0
10.44000, 106.0
10.51000, 108.0
10.58000, 113.0
10.65000, 102.0
10.72000, 111.0
10.79000, 91.0
10.86000, 97.0
10.93000, 89.0
11.00000, 95.0
11.07000, 107.0
11.14000, 93.0
11.21000, 91.0
11.28000, 89.0
11.35000, 76.0
11.42000, 89.0
11.49000, 79.0
11.56000, 93.0
11.63000, 83.0
11.70000, 82.0
11.77000, 71.0
11.84000, 85.0
11.91000, 88.0
11.98000, 62.0
12.05000, 76.0
12.12000, 79.0
12.19000, 58.0
12.26000, 74.0
12.33000, 72.0
12.40000, 69.0
12.47000, 66.0
12.54000, 86.0
12.61000, 74.0
12.68000, 60.0
12.75000, 66.0
12.82000, 52.0
12.89000, 60.0
12.96000, 67.0
13.03000, 55.0
13.10000, 47.0
13.17000, 53.0
13.24000, 54.0
13.31000, 50.0
13.38000, 38.0
13.45000, 47.0
13.52000, 48.0
13.59000, 54.0
13.66000, 56.0
13.73000, 40.0
13.80000, 44.0
13.87000, 41.0
13.94000, 33.0
14.01000, 38.0
14.08000, 40.0
14.15000, 47.0
14.22000, 44.0
14.29000, 39.0
14.36000, 41.0
14.43000, 36.0
14.50000, 34.0
14.57000, 42.0
14.64000, 29.0
14.71000, 25.0
14.78000, 37.0
14.85000, 35.0
14.92000, 26.0
14.99000, 36.0
15.06000, 21.0
15.13000, 28.0
15.20000, 32.0
15.27000, 23.0
15.34000, 30.0
15.41000, 22.0
15.48000, 25.0
15.55000, 19.0
15.62000, 26.0
15.69000, 25.0
15.76000, 22.0
15.83000, 25.0
15.90000, 15.0
15.97000, 22.0
16.04000, 22.0
16.11000, 29.0
16.18000, 19.0
16.25000, 18.0
16.32000, 12.0
16.39000, 16.0
16.46000, 23.0
16.53000, 14.0
16.60000, 16.0
16.67000, 11.0
16.74000, 15.0
16.81000, 17.0
16.88000, 13.0
16.95000, 13.0
17.02000, 12.0
17.09000, 13.0
17.16000, 12.0
17.23000, 20.0
17.30000, 15.0
17.37000, 13.0
17.44000, 8.0
17.51000, 5.0
17.58000, 9.0
17.65000, 11.0
17.72000, 10.0
17.79000, 11.0
17.86000, 10.0
17.93000, 9.0
18.00000, 12.0
18.07000, 8.0
18.14000, 3.0
18.21000, 6.0
18.28000, 3.0
18.35000, 3.0
18.42000, 4.0
18.49000, 5.0
18.56000, 4.0
18.63000, 6.0
18.70000, 1.0
18.77000, 1.0
18.84000, 1.0
18.91000, 2.0
18.98000, 3.0
19.05000, 2.0
19.12000, 2.0
19.19000, 2.0
19.26000, 1.0
19.33000, 2.0
19.40000, 1.0
19.47000, 0.0
19.54000, 1.0
19.61000, 0.0
19.68000, 0.0
19.75000, 0.0
19.82000, 0.0
19.89000, 0.0
19.96000, 0.0
20.03000, 1.0
20.10000, 0.0
20.17000, 0.0
20.24000, 0.0
20.27000, 0.0
#ENDOFDATA   :

File: Brass Spectrum_Overall.txt
#FORMAT      : EMSA/MAS Spectral Data File
#VERSION     : 1.0
#TITLE       : Spectrum 1
#DATE        : 01-APR-2024
#TIME        : 10:35
#OWNER       :
#NPOINTS     : 2048.0
#NCOLUMNS    : 1.0
#XUNITS      : keV
#YUNITS      : counts
#DATATYPE    : XY
#XPERCHAN    : 0.01
#OFFSET      : -0.2
#SIGNALTYPE  : EDS
#CHOFFSET    : 20.0
#LIVETIME    : 59.998
#REALTIME    : 65.6222
#BEAMKV      : 20.0
#MAGCAM      : 2000.0
#XTILTSTGE   : 0.0
#AZIMANGLE   : 0.0
#ELEVANGLE   : 35.0
#XPOSITION mm: 9.7729
#YPOSITION mm: -4.0065
#ZPOSITION mm: 22.0000
##OXINSTPT   : 6
##OXINSTSTROB: 46.41
##OXINSTNDET : 1
##OXINSTELEMS: 29,30,82,6,8,17,13,26
##OXINSTLABEL: 29, 8.048, Cu
##OXINSTLABEL: 29, 8.905, Cu
##OXINSTLABEL: 29, 0.930, Cu
##OXINSTLABEL: 29, 0.832, Cu
##OXINSTLABEL: 29, 0.811, Cu
##OXINSTLABEL: 30, 8.639, Zn
##OXINSTLABEL: 30, 9.572, Zn
##OXINSTLABEL: 30, 1.012, Zn
##OXINSTLABEL: 30, 0.906, Zn
##OXINSTLABEL: 30, 0.884, Zn
##OXINSTLABEL: 82, 10.552, Pb
##OXINSTLABEL: 82, 12.614, Pb
##OXINSTLABEL: 82, 12.623, Pb
##OXINSTLABEL: 82, 11.349, Pb
##OXINSTLABEL: 82, 14.765, Pb
##OXINSTLABEL: 82, 15.101, Pb
##OXINSTLABEL: 82, 9.185, Pb
##OXINSTLABEL: 82, 2.345, Pb
##OXINSTLABEL: 82, 2.653, Pb
##OXINSTLABEL: 82, 1.823, Pb
##OXINSTLABEL: 82, 0.293, Pb
##OXINSTLABEL: 82, 0.276, Pb
##OXINSTLABEL: 6, 0.277, C
##OXINSTLABEL: 8, 0.525, O
##OXINSTLABEL: 17, 2.622, Cl
##OXINSTLABEL: 17, 2.816, Cl
##OXINSTLABEL: 17, 0.181, Cl
##OXINSTLABEL: 13, 1.487, Al
##OXINSTLABEL: 26, 6.404, Fe
##OXINSTLABEL: 26, 7.058, Fe
##OXINSTLABEL: 26, 0.703, Fe
##OXINSTLABEL: 26, 0.615, Fe
#SPECTRUM    : Spectral Data Starts Here
-0.20000, 0.0
-0.13000, 0.0
-0.06000, 22.0
0.01000, 4107.0
0.08000, 611.0
0.15000, 77.0
0.22000, 155.0
0.29000, 310.0
0.36000, 114.0
0.43000, 179.0
0.50000, 573.0
0.57000, 399.0
0.64000, 443.0
0.71000, 589.0
0.78000, 1482.0
0.85000, 2650.0
0.92000, 20959.0
0.99000, 7067.0
1.06000, 2419.0
1.13000, 272.0
1.20000, 218.0
1.27000, 255.0
1.34000, 276.0
1.41000, 275.0
1.48000, 360.0
1.55000, 327.0
1.62000, 330.0
1.69000, 340.0
1.76000, 367.0
1.83000, 402.0
1.90000, 366.0
1.97000, 379.0
2.04000, 376.0
2.11000, 394.0
2.18000, 395.0
2.25000, 429.0
2.32000, 948.0
2.39000, 994.0
2.46000, 879.0
2.53000, 481.0
2.60000, 499.0
2.67000, 486.0
2.74000, 427.0
2.81000, 395.0
2.88000, 398.0
2.95000, 398.0
3.02000, 384.0
3.09000, 424.0
3.16000, 410.0
3.23000, 370.0
3.30000, 364.0
3.37000, 367.0
3.44000, 393.0
3.51000, 387.0
3.58000, 385.0
3.65000, 388.0
3.72000, 381.0
3.79000, 349.0
3.86000, 346.0
3.93000, 385.0
4.00000, 340.0
4.07000, 344.0
4.14000, 320.0
4.21000, 303.0
4.28000, 314.0
4.35000, 308.0
4.42000, 305.0
4.49000, 304.0
4.56000, 302.0
4.63000, 309.0
4.70000, 286.0
4.77000, 295.0
4.84000, 266.0
4.91000, 278.0
4.98000, 260.0
5.05000, 281.0
5.12000, 258.0
5.19000, 264.0
5.26000, 239.0
5.33000, 257.0
5.40000, 257.0
5.47000, 232.0
5.54000, 238.0
5.61000, 215.0
5.68000, 220.0
5.75000, 228.0
5.82000, 228.0
5.89000, 228.0
5.96000, 195.0
6.03000, 211.0
6.10000, 203.0
6.17000, 199.0
6.24000, 204.0
6.31000, 220.0
6.38000, 262.0
6.45000, 226.0
6.52000, 185.0
6.59000, 192.0
6.66000, 187.0
6.73000, 179.0
6.80000, 173.0
6.87000, 195.0
6.94000, 191.0
7.01000, 175.0
7.08000, 189.0
7.15000, 162.0
7.22000, 146.0
7.29000, 168.0
7.36000, 157.0
7.43000, 150.0
7.50000, 160.0
7.57000, 168.0
7.64000, 157.0
7.71000, 142.0
7.78000, 171.0
7.85000, 233.0
7.92000, 959.0
7.99000, 3992.0
8.06000, 4947.0
8.13000, 1907.0
8.20000, 311.0
8.27000, 164.0
8.34000, 136.0
8.41000, 150.0
8.48000, 309.0
8.55000, 1298.0
8.62000, 2545.0
8.69000, 1550.0
8.76000, 512.0
8.83000, 521.0
8.90000, 758.0
8.97000, 520.0
9.04000, 167.0
9.11000, 111.0
9.18000, 123.0
9.25000, 90.0
9.32000, 88.0
9.39000, 112.0
9.46000, 167.0
9.53000, 356.0
9.60000, 343.0
9.67000, 170.0
9.74000, 92.0
9.81000, 85.0
9.88000, 67.0
9.95000, 78.0
10.02000, 78.0
10.09000, 79.0
10.16000, 65.0
10.23000, 74.0
10.30000, 70.0
10.37000, 75.0
10.44000, 88.0
10.51000, 112.0
10.58000, 117.0
10.65000, 87.0
10.72000, 78.0
10.79000, 81.0
10.86000, 63.0
10.93000, 68.0
11.00000, 67.0
11.07000, 64.0
11.14000, 68.0
11.21000, 55.0
11.28000, 73.0
11.35000, 59.0
11.42000, 63.0
11.49000, 53.0
11.56000, 53.0
11.63000, 64.0
11.70000, 54.0
11.77000, 50.0
11.84000, 60.0
11.91000, 56.0
11.98000, 49.0
12.05000, 56.0
12.12000, 51.0
12.19000, 49.0
12.26000, 51.0
12.33000, 43.0
12.40000, 54.0
12.47000, 59.0
12.54000, 57.0
12.61000, 66.0
12.68000, 53.0
12.75000, 50.0
12.82000, 49.0
12.89000, 43.0
12.96000, 39.0
13.03000, 43.0
13.10000, 45.0
13.17000, 38.0
13.24000, 44.0
13.31000, 28.0
13.38000, 28.0
13.45000, 37.0
13.52000, 31.0
13.59000, 37.0
13.66000, 31.0
13.73000, 29.0
13.80000, 33.0
13.87000, 30.0
13.94000, 27.0
14.01000, 23.0
14.08000, 31.0
14.15000, 29.0
14.22000, 25.0
14.29000, 27.0
14.36000, 29.0
14.43000, 32.0
14.50000, 19.0
14.57000, 21.0
14.64000, 21.0
14.71000, 20.0
14.78000, 29.0
14.85000, 20.0
14.92000, 28.0
14.99000, 15.0
15.06000, 26.0
15.13000, 21.0
15.20000, 23.0
15.27000, 15.0
15.34000, 15.0
15.41000, 23.0
15.48000, 10.0
15.55000, 16.0
15.62000, 13.0
15.69000, 14.0
15.76000, 17.0
15.83000, 18.0
15.90000, 10.0
15.97000, 16.0
16.04000, 16.0
16.11000, 16.0
16.18000, 19.0
16.25000, 19.0
16.32000, 10.0
16.39000, 13.0
16.46000, 14.0
16.53000, 9.0
16.60000, 12.0
16.67000, 13.0
16.74000, 13.0
16.81000, 12.0
16.88000, 8.0
16.95000, 15.0
17.02000, 8.0
17.09000, 7.0
17.16000, 7.0
17.23000, 11.0
17.30000, 4.0
17.37000, 8.0
17.44000, 7.0
17.51000, 8.0
17.58000, 7.0
17.65000, 9.0
17.72000, 8.0
17.79000, 7.0
17.86000, 6.0
17.93000, 2.0
18.00000, 4.0
18.07000, 7.0
18.14000, 7.0
18.21000, 6.0
18.28000, 5.0
18.35000, 6.0
18.42000, 4.0
18.49000, 2.0
18.56000, 5.0
18.63000, 5.0
18.70000, 1.0
18.77000, 1.0
18.84000, 4.0
18.91000, 3.0
18.98000, 1.0
19.05000, 5.0
19.12000, 2.0
19.19000, 1.0
19.26000, 0.0
19.33000, 1.0
19.40000, 0.0
19.47000, 0.0
19.54000, 1.0
19.61000, 0.0
19.68000, 0.0
19.75000, 0.0
19.82000, 0.0
19.89000, 0.0
19.96000, 0.0
20.03000, 0.0
20.10000, 1.0
20.17000, 0.0
20.24000, 0.0
20.27000, 0.0
#ENDOFDATA   :

File: Brass Spectrum_Pb particle.txt
#FORMAT      : EMSA/MAS Spectral Data File
#VERSION     : 1.0
#TITLE       : Spectrum 2
#DATE        : 01-APR-2024
#TIME        : 10:41
#OWNER       :
#NPOINTS     : 2048.0
#NCOLUMNS    : 1.0
#XUNITS      : keV
#YUNITS      : counts
#DATATYPE    : XY
#XPERCHAN    : 0.01
#OFFSET      : -0.2
#SIGNALTYPE  : EDS
#CHOFFSET    : 20.0
#LIVETIME    : 60.0
#REALTIME    : 69.977
#BEAMKV      : 20.0
#MAGCAM      : 2000.0
#XTILTSTGE   : 0.0
#AZIMANGLE   : 0.0
#ELEVANGLE   : 35.0
#XPOSITION mm: 9.7729
#YPOSITION mm: -4.0065
#ZPOSITION mm: 22.0000
##OXINSTPT   : 6
##OXINSTSTROB: 46.45
##OXINSTNDET : 1
##OXINSTELEMS: 8,29,30,82,6,13,17
##OXINSTLABEL: 8, 0.525, O
##OXINSTLABEL: 29, 8.048, Cu
##OXINSTLABEL: 29, 8.905, Cu
##OXINSTLABEL: 29, 0.930, Cu
##OXINSTLABEL: 29, 0.832, Cu
##OXINSTLABEL: 29, 0.811, Cu
##OXINSTLABEL: 30, 8.639, Zn
##OXINSTLABEL: 30, 9.572, Zn
##OXINSTLABEL: 30, 1.012, Zn
##OXINSTLABEL: 30, 0.906, Zn
##OXINSTLABEL: 30, 0.884, Zn
##OXINSTLABEL: 82, 10.552, Pb
##OXINSTLABEL: 82, 12.614, Pb
##OXINSTLABEL: 82, 12.623, Pb
##OXINSTLABEL: 82, 11.349, Pb
##OXINSTLABEL: 82, 14.765, Pb
##OXINSTLABEL: 82, 15.101, Pb
##OXINSTLABEL: 82, 9.185, Pb
##OXINSTLABEL: 82, 2.345, Pb
##OXINSTLABEL: 82, 2.653, Pb
##OXINSTLABEL: 82, 1.823, Pb
##OXINSTLABEL: 82, 0.293, Pb
##OXINSTLABEL: 82, 0.276, Pb
##OXINSTLABEL: 6, 0.277, C
##OXINSTLABEL: 13, 1.487, Al
##OXINSTLABEL: 17, 2.622, Cl
##OXINSTLABEL: 17, 2.816, Cl
##OXINSTLABEL: 17, 0.181, Cl
#SPECTRUM    : Spectral Data Starts Here
-0.20000, 0.0
-0.13000, 0.0
-0.06000, 26.0
0.01000, 4130.0
0.08000, 610.0
0.15000, 173.0
0.22000, 380.0
0.29000, 1040.0
0.36000, 196.0
0.43000, 276.0
0.50000, 1970.0
0.57000, 954.0
0.64000, 598.0
0.71000, 693.0
0.78000, 621.0
0.85000, 870.0
0.92000, 3788.0
0.99000, 2334.0
1.06000, 1285.0
1.13000, 680.0
1.20000, 736.0
1.27000, 831.0
1.34000, 825.0
1.41000, 932.0
1.48000, 1596.0
1.55000, 1094.0
1.62000, 947.0
1.69000, 1008.0
1.76000, 1373.0
1.83000, 2304.0
1.90000, 1341.0
1.97000, 1162.0
2.04000, 1057.0
2.11000, 1171.0
2.18000, 1420.0
2.25000, 2059.0
2.32000, 17981.0
2.39000, 19836.0
2.46000, 15330.0
2.53000, 2586.0
2.60000, 1845.0
2.67000, 2067.0
2.74000, 788.0
2.81000, 711.0
2.88000, 716.0
2.95000, 692.0
3.02000, 718.0
3.09000, 876.0
3.16000, 794.0
3.23000, 630.0
3.30000, 628.0
3.37000, 618.0
3.44000, 725.0
3.51000, 663.0
3.58000, 701.0
3.65000, 756.0
3.72000, 683.0
3.79000, 648.0
3.86000, 622.0
3.93000, 615.0
4.00000, 623.0
4.07000, 626.0
4.14000, 596.0
4.21000, 590.0
4.28000, 589.0
4.35000, 610.0
4.42000, 592.0
4.49000, 562.0
4.56000, 601.0
4.63000, 608.0
4.70000, 600.0
4.77000, 590.0
4.84000, 583.0
4.91000, 581.0
4.98000, 532.0
5.05000, 547.0
5.12000, 577.0
5.19000, 519.0
5.26000, 555.0
5.33000, 525.0
5.40000, 523.0
5.47000, 530.0
5.54000, 528.0
5.61000, 549.0
5.68000, 550.0
5.75000, 533.0
5.82000, 520.0
5.89000, 538.0
5.96000, 460.0
6.03000, 500.0
6.10000, 479.0
6.17000, 471.0
6.24000, 494.0
6.31000, 483.0
6.38000, 481.0
6.45000, 467.0
6.52000, 465.0
6.59000, 454.0
6.66000, 428.0
6.73000, 456.0
6.80000, 419.0
6.87000, 437.0
6.94000, 495.0
7.01000, 408.0
7.08000, 413.0
7.15000, 418.0
7.22000, 391.0
7.29000, 409.0
7.36000, 400.0
7.43000, 441.0
7.50000, 379.0
7.57000, 403.0
7.64000, 441.0
7.71000, 397.0
7.78000, 383.0
7.85000, 402.0
7.92000, 697.0
7.99000, 1584.0
8.06000, 1890.0
8.13000, 924.0
8.20000, 383.0
8.27000, 344.0
8.34000, 362.0
8.41000, 348.0
8.48000, 417.0
8.55000, 745.0
8.62000, 1123.0
8.69000, 862.0
8.76000, 502.0
8.83000, 473.0
8.90000, 530.0
8.97000, 405.0
9.04000, 339.0
9.11000, 347.0
9.18000, 344.0
9.25000, 322.0
9.32000, 306.0
9.39000, 285.0
9.46000, 297.0
9.53000, 339.0
9.60000, 363.0
9.67000, 292.0
9.74000, 275.0
9.81000, 274.0
9.88000, 258.0
9.95000, 222.0
10.02000, 245.0
10.09000, 284.0
10.16000, 241.0
10.23000, 239.0
10.30000, 254.0
10.37000, 400.0
10.44000, 736.0
10.51000, 1432.0
10.58000, 1310.0
10.65000, 645.0
10.72000, 278.0
10.79000, 207.0
10.86000, 212.0
10.93000, 242.0
11.00000, 211.0
11.07000, 211.0
11.14000, 200.0
11.21000, 186.0
11.28000, 210.0
11.35000, 174.0
11.42000, 195.0
11.49000, 190.0
11.56000, 178.0
11.63000, 189.0
11.70000, 174.0
11.77000, 168.0
11.84000, 165.0
11.91000, 158.0
11.98000, 139.0
12.05000, 169.0
12.12000, 184.0
12.19000, 173.0
12.26000, 148.0
12.33000, 181.0
12.40000, 160.0
12.47000, 231.0
12.54000, 463.0
12.61000, 566.0
12.68000, 411.0
12.75000, 215.0
12.82000, 162.0
12.89000, 138.0
12.96000, 154.0
13.03000, 136.0
13.10000, 140.0
13.17000, 113.0
13.24000, 109.0
13.31000, 104.0
13.38000, 121.0
13.45000, 96.0
13.52000, 119.0
13.59000, 88.0
13.66000, 100.0
13.73000, 89.0
13.80000, 88.0
13.87000, 96.0
13.94000, 89.0
14.01000, 91.0
14.08000, 73.0
14.15000, 85.0
14.22000, 99.0
14.29000, 87.0
14.36000, 67.0
14.43000, 95.0
14.50000, 76.0
14.57000, 93.0
14.64000, 89.0
14.71000, 106.0
14.78000, 113.0
14.85000, 78.0
14.92000, 69.0
14.99000, 70.0
15.06000, 61.0
15.13000, 65.0
15.20000, 65.0
15.27000, 50.0
15.34000, 47.0
15.41000, 64.0
15.48000, 62.0
15.55000, 53.0
15.62000, 51.0
15.69000, 45.0
15.76000, 61.0
15.83000, 47.0
15.90000, 44.0
15.97000, 39.0
16.04000, 43.0
16.11000, 37.0
16.18000, 41.0
16.25000, 38.0
16.32000, 43.0
16.39000, 31.0
16.46000, 35.0
16.53000, 28.0
16.60000, 31.0
16.67000, 27.0
16.74000, 30.0
16.81000, 25.0
16.88000, 32.0
16.95000, 31.0
17.02000, 34.0
17.09000, 23.0
17.16000, 24.0
17.23000, 22.0
17.30000, 37.0
17.37000, 23.0
17.44000, 25.0
17.51000, 24.0
17.58000, 15.0
17.65000, 18.0
17.72000, 14.0
17.79000, 16.0
17.86000, 16.0
17.93000, 13.0
18.00000, 15.0
18.07000, 16.0
18.14000, 14.0
18.21000, 9.0
18.28000, 12.0
18.35000, 11.0
18.42000, 7.0
18.49000, 17.0
18.56000, 9.0
18.63000, 8.0
18.70000, 8.0
18.77000, 5.0
18.84000, 6.0
18.91000, 4.0
18.98000, 4.0
19.05000, 4.0
19.12000, 3.0
19.19000, 2.0
19.26000, 5.0
19.33000, 5.0
19.40000, 5.0
19.47000, 2.0
19.54000, 1.0
19.61000, 0.0
19.68000, 0.0
19.75000, 1.0
19.82000, 2.0
19.89000, 0.0
19.96000, 0.0
20.03000, 0.0
20.10000, 0.0
20.17000, 0.0
20.24000, 0.0
20.27000, 0.0
#ENDOFDATA   :